Experiment.thisRepN,Experiment.thisTrialN,Experiment.thisN,Experiment.thisIndex,block.thisRepN,block.thisTrialN,block.thisN,block.thisIndex,text_2.started,text_2.stopped,key_resp_2.keys,key_resp_2.rt,key_resp_2.started,key_resp_2.stopped,text.started,text.stopped,text_3.started,text_3.stopped,Checkerboard.started,Checkerboard.stopped,Checkerboard2.started,Checkerboard2.stopped,participant,date,expName,psychopyVersion,frameRate,
,,,,,,,,6.3703398001380265,None,space,4.8944441000930965,6.3703398001380265,None,,,,,,,,,XXX,2022_Mar_07_1636,Checkerboard,2021.2.0,59.842399056045075,
0,0,0,0,0,0,0,0,,,,,,,11.28583459998481,None,26.284858100116253,None,26.785700500011444,27.38455060007982,27.368188200052828,None,XXX,2022_Mar_07_1636,Checkerboard,2021.2.0,59.842399056045075,
0,0,0,0,1,0,1,0,,,,,,,,,,,27.96774800005369,28.56780970003456,28.551080900011584,27.96774800005369,XXX,2022_Mar_07_1636,Checkerboard,2021.2.0,59.842399056045075,
0,0,0,0,2,0,2,0,,,,,,,,,,,29.151230399962515,29.751191599993035,29.734478200087324,29.151230399962515,XXX,2022_Mar_07_1636,Checkerboard,2021.2.0,59.842399056045075,
0,0,0,0,3,0,3,0,,,,,,,,,,,30.335355299990624,30.934631100157276,30.91769260005094,30.335355299990624,XXX,2022_Mar_07_1636,Checkerboard,2021.2.0,59.842399056045075,
0,0,0,0,4,0,4,0,,,,,,,,,,,31.51783929998055,32.117958300048485,32.101123800035566,31.51783929998055,XXX,2022_Mar_07_1636,Checkerboard,2021.2.0,59.842399056045075,
0,0,0,0,5,0,5,0,,,,,,,,,,,32.701030700001866,33.301036400021985,33.284344600047916,32.701030700001866,XXX,2022_Mar_07_1636,Checkerboard,2021.2.0,59.842399056045075,
0,0,0,0,6,0,6,0,,,,,,,,,,,33.88438310008496,34.48431540001184,34.46762310015038,33.88438310008496,XXX,2022_Mar_07_1636,Checkerboard,2021.2.0,59.842399056045075,
0,0,0,0,7,0,7,0,,,,,,,,,,,35.06771880015731,35.667527300072834,35.65114450012334,35.06771880015731,XXX,2022_Mar_07_1636,Checkerboard,2021.2.0,59.842399056045075,
0,0,0,0,8,0,8,0,,,,,,,,,,,36.25130440015346,36.85098460013978,36.834402200067416,36.25130440015346,XXX,2022_Mar_07_1636,Checkerboard,2021.2.0,59.842399056045075,
0,0,0,0,9,0,9,0,,,,,,,,,,,37.43418250000104,38.03411650005728,38.01730279996991,37.43418250000104,XXX,2022_Mar_07_1636,Checkerboard,2021.2.0,59.842399056045075,
0,0,0,0,,,,,,,,,,,,,,,,,,,XXX,2022_Mar_07_1636,Checkerboard,2021.2.0,59.842399056045075,
1,0,1,0,0,0,0,0,,,,,,,38.61735010007396,None,53.61670670006424,None,54.116619900101796,54.71658320003189,54.70002480014227,None,XXX,2022_Mar_07_1636,Checkerboard,2021.2.0,59.842399056045075,
1,0,1,0,1,0,1,0,,,,,,,,,,,55.299791400088,55.89973330008797,55.88331099995412,55.299791400088,XXX,2022_Mar_07_1636,Checkerboard,2021.2.0,59.842399056045075,
1,0,1,0,2,0,2,0,,,,,,,,,,,56.48324810015038,57.083345300052315,57.06670060008764,56.48324810015038,XXX,2022_Mar_07_1636,Checkerboard,2021.2.0,59.842399056045075,
1,0,1,0,3,0,3,0,,,,,,,,,,,57.66670239996165,58.26649920013733,58.24991210014559,57.66670239996165,XXX,2022_Mar_07_1636,Checkerboard,2021.2.0,59.842399056045075,
1,0,1,0,4,0,4,0,,,,,,,,,,,58.850088600069284,59.44997470011003,59.43335029995069,58.850088600069284,XXX,2022_Mar_07_1636,Checkerboard,2021.2.0,59.842399056045075,
1,0,1,0,5,0,5,0,,,,,,,,,,,60.03285469999537,60.63323309994303,60.61620789999142,60.03285469999537,XXX,2022_Mar_07_1636,Checkerboard,2021.2.0,59.842399056045075,
1,0,1,0,6,0,6,0,,,,,,,,,,,61.21617319993675,61.81631590006873,61.799527399940416,61.21617319993675,XXX,2022_Mar_07_1636,Checkerboard,2021.2.0,59.842399056045075,
1,0,1,0,7,0,7,0,,,,,,,,,,,62.39969350001775,62.999513500137255,62.983098699944094,62.39969350001775,XXX,2022_Mar_07_1636,Checkerboard,2021.2.0,59.842399056045075,
1,0,1,0,8,0,8,0,,,,,,,,,,,63.58321489999071,64.18300780002028,64.16611700016074,63.58321489999071,XXX,2022_Mar_07_1636,Checkerboard,2021.2.0,59.842399056045075,
1,0,1,0,9,0,9,0,,,,,,,,,,,64.76620730012655,65.36614970001392,65.34935929998755,64.76620730012655,XXX,2022_Mar_07_1636,Checkerboard,2021.2.0,59.842399056045075,
1,0,1,0,,,,,,,,,,,,,,,,,,,XXX,2022_Mar_07_1636,Checkerboard,2021.2.0,59.842399056045075,
2,0,2,0,0,0,0,0,,,,,,,65.9499057000503,None,80.96553419996053,None,81.46531070000492,82.06536540016532,82.04894350003451,None,XXX,2022_Mar_07_1636,Checkerboard,2021.2.0,59.842399056045075,
2,0,2,0,1,0,1,0,,,,,,,,,,,82.64876649994403,83.24861110001802,83.23201530007645,82.64876649994403,XXX,2022_Mar_07_1636,Checkerboard,2021.2.0,59.842399056045075,
2,0,2,0,2,0,2,0,,,,,,,,,,,83.83192629995756,84.43196010007523,84.41532790008932,83.83192629995756,XXX,2022_Mar_07_1636,Checkerboard,2021.2.0,59.842399056045075,
2,0,2,0,3,0,3,0,,,,,,,,,,,85.01521540014073,85.61517710005865,85.59932620008476,85.01521540014073,XXX,2022_Mar_07_1636,Checkerboard,2021.2.0,59.842399056045075,
2,0,2,0,4,0,4,0,,,,,,,,,,,86.21505340002477,86.81510740006343,86.79846740001813,86.21505340002477,XXX,2022_Mar_07_1636,Checkerboard,2021.2.0,59.842399056045075,
2,0,2,0,5,0,5,0,,,,,,,,,,,87.39834129996598,87.99840459995903,87.98198390007019,87.39834129996598,XXX,2022_Mar_07_1636,Checkerboard,2021.2.0,59.842399056045075,
2,0,2,0,6,0,6,0,,,,,,,,,,,88.58160730008967,89.18170240009204,89.16503060003743,88.58160730008967,XXX,2022_Mar_07_1636,Checkerboard,2021.2.0,59.842399056045075,
2,0,2,0,7,0,7,0,,,,,,,,,,,89.76497819996439,90.36507009994239,90.34847020008601,89.76497819996439,XXX,2022_Mar_07_1636,Checkerboard,2021.2.0,59.842399056045075,
2,0,2,0,8,0,8,0,,,,,,,,,,,90.9483264000155,91.54805109999143,91.5314446000848,90.9483264000155,XXX,2022_Mar_07_1636,Checkerboard,2021.2.0,59.842399056045075,
2,0,2,0,9,0,9,0,,,,,,,,,,,92.13135030004196,92.73135150014423,92.7146883001551,92.13135030004196,XXX,2022_Mar_07_1636,Checkerboard,2021.2.0,59.842399056045075,
2,0,2,0,,,,,,,,,,,,,,,,,,,XXX,2022_Mar_07_1636,Checkerboard,2021.2.0,59.842399056045075,
3,0,3,0,0,0,0,0,,,,,,,93.31459630001336,None,108.31399750011042,None,108.81414699996822,109.41418970003724,109.39754320005886,None,XXX,2022_Mar_07_1636,Checkerboard,2021.2.0,59.842399056045075,
3,0,3,0,1,0,1,0,,,,,,,,,,,109.99710309994407,110.59715469996445,110.58071470004506,109.99710309994407,XXX,2022_Mar_07_1636,Checkerboard,2021.2.0,59.842399056045075,
3,0,3,0,2,0,2,0,,,,,,,,,,,111.18039859994315,111.78098080004565,111.76402340014465,111.18039859994315,XXX,2022_Mar_07_1636,Checkerboard,2021.2.0,59.842399056045075,
3,0,3,0,3,0,3,0,,,,,,,,,,,112.36390260001644,112.96423969999887,112.94761750008911,112.36390260001644,XXX,2022_Mar_07_1636,Checkerboard,2021.2.0,59.842399056045075,
3,0,3,0,4,0,4,0,,,,,,,,,,,113.54719940014184,114.14732050010934,114.13033540011384,113.54719940014184,XXX,2022_Mar_07_1636,Checkerboard,2021.2.0,59.842399056045075,
3,0,3,0,5,0,5,0,,,,,,,,,,,114.73026810004376,115.33027520007454,115.3137251001317,114.73026810004376,XXX,2022_Mar_07_1636,Checkerboard,2021.2.0,59.842399056045075,
3,0,3,0,6,0,6,0,,,,,,,,,,,115.91354910004884,116.51360599999316,116.49692000006326,115.91354910004884,XXX,2022_Mar_07_1636,Checkerboard,2021.2.0,59.842399056045075,
3,0,3,0,7,0,7,0,,,,,,,,,,,117.09676999994554,117.69703979999758,117.68047170015052,117.09676999994554,XXX,2022_Mar_07_1636,Checkerboard,2021.2.0,59.842399056045075,
3,0,3,0,8,0,8,0,,,,,,,,,,,118.28064740006812,118.87997819995508,118.86354069993831,118.28064740006812,XXX,2022_Mar_07_1636,Checkerboard,2021.2.0,59.842399056045075,
3,0,3,0,9,0,9,0,,,,,,,,,,,119.46334290015511,120.06322530005127,120.04703430016525,119.46334290015511,XXX,2022_Mar_07_1636,Checkerboard,2021.2.0,59.842399056045075,
3,0,3,0,,,,,,,,,,,,,,,,,,,XXX,2022_Mar_07_1636,Checkerboard,2021.2.0,59.842399056045075,
4,0,4,0,0,0,0,0,,,,,,,120.64665940008126,None,135.6460204999894,None,136.14606770011596,136.74644320015796,136.7294199001044,None,XXX,2022_Mar_07_1636,Checkerboard,2021.2.0,59.842399056045075,
4,0,4,0,1,0,1,0,,,,,,,,,,,137.32921420014463,137.92954859999008,137.91245419997722,137.32921420014463,XXX,2022_Mar_07_1636,Checkerboard,2021.2.0,59.842399056045075,
4,0,4,0,2,0,2,0,,,,,,,,,,,138.5124864000827,139.1123848001007,139.09614829998463,138.5124864000827,XXX,2022_Mar_07_1636,Checkerboard,2021.2.0,59.842399056045075,
4,0,4,0,3,0,3,0,,,,,,,,,,,139.69594510016032,140.29589510010555,140.27905440004542,139.69594510016032,XXX,2022_Mar_07_1636,Checkerboard,2021.2.0,59.842399056045075,
4,0,4,0,4,0,4,0,,,,,,,,,,,140.87907210015692,141.47922330000438,141.4627388000954,140.87907210015692,XXX,2022_Mar_07_1636,Checkerboard,2021.2.0,59.842399056045075,
4,0,4,0,5,0,5,0,,,,,,,,,,,142.06224850006402,142.6624350999482,142.64590060012415,142.06224850006402,XXX,2022_Mar_07_1636,Checkerboard,2021.2.0,59.842399056045075,
4,0,4,0,6,0,6,0,,,,,,,,,,,143.24589890008792,143.84550269995816,143.8289898999501,143.24589890008792,XXX,2022_Mar_07_1636,Checkerboard,2021.2.0,59.842399056045075,
4,0,4,0,7,0,7,0,,,,,,,,,,,144.42896679998375,145.03013440012,145.01224000006914,144.42896679998375,XXX,2022_Mar_07_1636,Checkerboard,2021.2.0,59.842399056045075,
4,0,4,0,8,0,8,0,,,,,,,,,,,145.61213250015862,146.21207759995013,146.19544750009663,145.61213250015862,XXX,2022_Mar_07_1636,Checkerboard,2021.2.0,59.842399056045075,
4,0,4,0,9,0,9,0,,,,,,,,,,,146.7956312999595,147.3954477000516,147.37869890010916,146.7956312999595,XXX,2022_Mar_07_1636,Checkerboard,2021.2.0,59.842399056045075,
4,0,4,0,,,,,,,,,,,,,,,,,,,XXX,2022_Mar_07_1636,Checkerboard,2021.2.0,59.842399056045075,
5,0,5,0,0,0,0,0,,,,,,,147.97892919997685,None,162.97823040001094,None,163.47843670006841,164.07807930000126,164.06154779996723,None,XXX,2022_Mar_07_1636,Checkerboard,2021.2.0,59.842399056045075,
5,0,5,0,1,0,1,0,,,,,,,,,,,164.6612246001605,165.26188910007477,165.24482010002248,164.6612246001605,XXX,2022_Mar_07_1636,Checkerboard,2021.2.0,59.842399056045075,
5,0,5,0,2,0,2,0,,,,,,,,,,,165.844497699989,166.44452599994838,166.42797720013186,165.844497699989,XXX,2022_Mar_07_1636,Checkerboard,2021.2.0,59.842399056045075,
5,0,5,0,3,0,3,0,,,,,,,,,,,167.0287371999584,167.627672099974,167.61122710001655,167.0287371999584,XXX,2022_Mar_07_1636,Checkerboard,2021.2.0,59.842399056045075,
5,0,5,0,4,0,4,0,,,,,,,,,,,168.21117960009724,168.8112198000308,168.79478100012057,168.21117960009724,XXX,2022_Mar_07_1636,Checkerboard,2021.2.0,59.842399056045075,
5,0,5,0,5,0,5,0,,,,,,,,,,,169.3941991000902,169.99436100013554,169.97749330010265,169.3941991000902,XXX,2022_Mar_07_1636,Checkerboard,2021.2.0,59.842399056045075,
5,0,5,0,6,0,6,0,,,,,,,,,,,170.57755249994807,171.1782234001439,171.16109100007452,170.57755249994807,XXX,2022_Mar_07_1636,Checkerboard,2021.2.0,59.842399056045075,
5,0,5,0,7,0,7,0,,,,,,,,,,,171.76097559998743,172.36101410002448,172.34411179996096,171.76097559998743,XXX,2022_Mar_07_1636,Checkerboard,2021.2.0,59.842399056045075,
5,0,5,0,8,0,8,0,,,,,,,,,,,172.94436160009354,173.54450189997442,173.52746569993906,172.94436160009354,XXX,2022_Mar_07_1636,Checkerboard,2021.2.0,59.842399056045075,
5,0,5,0,9,0,9,0,,,,,,,,,,,174.12748100003228,174.72761219996028,174.7107696000021,174.12748100003228,XXX,2022_Mar_07_1636,Checkerboard,2021.2.0,59.842399056045075,
5,0,5,0,,,,,,,,,,,,,,,,,,,XXX,2022_Mar_07_1636,Checkerboard,2021.2.0,59.842399056045075,
6,0,6,0,0,0,0,0,,,,,,,175.31110260006972,None,190.310028700158,None,190.81009869999252,191.41030899994075,191.393542899983,None,XXX,2022_Mar_07_1636,Checkerboard,2021.2.0,59.842399056045075,
6,0,6,0,1,0,1,0,,,,,,,,,,,191.99315450014547,192.5932406000793,192.57681090012193,191.99315450014547,XXX,2022_Mar_07_1636,Checkerboard,2021.2.0,59.842399056045075,
6,0,6,0,2,0,2,0,,,,,,,,,,,193.17665020003915,193.77685860008933,193.76016840012744,193.17665020003915,XXX,2022_Mar_07_1636,Checkerboard,2021.2.0,59.842399056045075,
6,0,6,0,3,0,3,0,,,,,,,,,,,194.35967419994995,194.9599502000492,194.94310100004077,194.35967419994995,XXX,2022_Mar_07_1636,Checkerboard,2021.2.0,59.842399056045075,
6,0,6,0,4,0,4,0,,,,,,,,,,,195.54296520003118,196.14325279998593,196.1266256000381,195.54296520003118,XXX,2022_Mar_07_1636,Checkerboard,2021.2.0,59.842399056045075,
6,0,6,0,5,0,5,0,,,,,,,,,,,196.7263581000734,197.32631770009175,197.30971370008774,196.7263581000734,XXX,2022_Mar_07_1636,Checkerboard,2021.2.0,59.842399056045075,
6,0,6,0,6,0,6,0,,,,,,,,,,,197.90960040013306,198.50976660009474,198.49288749997504,197.90960040013306,XXX,2022_Mar_07_1636,Checkerboard,2021.2.0,59.842399056045075,
6,0,6,0,7,0,7,0,,,,,,,,,,,199.0929599001538,199.69298049993813,199.67646550014615,199.0929599001538,XXX,2022_Mar_07_1636,Checkerboard,2021.2.0,59.842399056045075,
6,0,6,0,8,0,8,0,,,,,,,,,,,200.2767717000097,200.87618280015886,200.85970690008253,200.2767717000097,XXX,2022_Mar_07_1636,Checkerboard,2021.2.0,59.842399056045075,
6,0,6,0,9,0,9,0,,,,,,,,,,,201.45967580005527,202.05948260007426,202.04282720014453,201.45967580005527,XXX,2022_Mar_07_1636,Checkerboard,2021.2.0,59.842399056045075,
6,0,6,0,,,,,,,,,,,,,,,,,,,XXX,2022_Mar_07_1636,Checkerboard,2021.2.0,59.842399056045075,
7,0,7,0,0,0,0,0,,,,,,,202.64269650005735,None,217.64197520003654,None,218.14198060007766,218.74220570013858,218.7256752999965,None,XXX,2022_Mar_07_1636,Checkerboard,2021.2.0,59.842399056045075,
7,0,7,0,1,0,1,0,,,,,,,,,,,219.3253016001545,219.92553370003588,219.90869740000926,219.3253016001545,XXX,2022_Mar_07_1636,Checkerboard,2021.2.0,59.842399056045075,
7,0,7,0,2,0,2,0,,,,,,,,,,,220.5083825001493,221.1090005999431,221.09198200004175,220.5083825001493,XXX,2022_Mar_07_1636,Checkerboard,2021.2.0,59.842399056045075,
7,0,7,0,3,0,3,0,,,,,,,,,,,221.69185089995153,222.29193189996295,222.27540950011462,221.69185089995153,XXX,2022_Mar_07_1636,Checkerboard,2021.2.0,59.842399056045075,
7,0,7,0,4,0,4,0,,,,,,,,,,,222.8751586000435,223.47516390006058,223.45875230012462,222.8751586000435,XXX,2022_Mar_07_1636,Checkerboard,2021.2.0,59.842399056045075,
7,0,7,0,5,0,5,0,,,,,,,,,,,224.05858430010267,224.65864030015655,224.6418894000817,224.05858430010267,XXX,2022_Mar_07_1636,Checkerboard,2021.2.0,59.842399056045075,
7,0,7,0,6,0,6,0,,,,,,,,,,,225.24156620004214,225.84145370009355,225.82493400014937,225.24156620004214,XXX,2022_Mar_07_1636,Checkerboard,2021.2.0,59.842399056045075,
7,0,7,0,7,0,7,0,,,,,,,,,,,226.4248703001067,227.02504640002735,227.00834250007756,226.4248703001067,XXX,2022_Mar_07_1636,Checkerboard,2021.2.0,59.842399056045075,
7,0,7,0,8,0,8,0,,,,,,,,,,,227.60849350015633,228.20828260015696,228.19149410002865,227.60849350015633,XXX,2022_Mar_07_1636,Checkerboard,2021.2.0,59.842399056045075,
7,0,7,0,9,0,9,0,,,,,,,,,,,228.79131290013902,229.39162420015782,229.37471030000597,228.79131290013902,XXX,2022_Mar_07_1636,Checkerboard,2021.2.0,59.842399056045075,
7,0,7,0,,,,,,,,,,,,,,,,,,,XXX,2022_Mar_07_1636,Checkerboard,2021.2.0,59.842399056045075,
8,0,8,0,0,0,0,0,,,,,,,229.97468900005333,None,244.9742495000828,None,245.47398430015892,246.0745204000268,246.05727230012417,None,XXX,2022_Mar_07_1636,Checkerboard,2021.2.0,59.842399056045075,
8,0,8,0,1,0,1,0,,,,,,,,,,,246.65725159994327,247.25727519998327,247.24078400013968,246.65725159994327,XXX,2022_Mar_07_1636,Checkerboard,2021.2.0,59.842399056045075,
8,0,8,0,2,0,2,0,,,,,,,,,,,247.8404777001124,248.44102070014924,248.42404330009595,247.8404777001124,XXX,2022_Mar_07_1636,Checkerboard,2021.2.0,59.842399056045075,
8,0,8,0,3,0,3,0,,,,,,,,,,,249.02366970013827,249.62389839999378,249.60737260011956,249.02366970013827,XXX,2022_Mar_07_1636,Checkerboard,2021.2.0,59.842399056045075,
8,0,8,0,4,0,4,0,,,,,,,,,,,250.2071369001642,250.80728820012882,250.7905604999978,250.2071369001642,XXX,2022_Mar_07_1636,Checkerboard,2021.2.0,59.842399056045075,
8,0,8,0,5,0,5,0,,,,,,,,,,,251.3916595999617,252.00692360009998,251.97391670010984,251.3916595999617,XXX,2022_Mar_07_1636,Checkerboard,2021.2.0,59.842399056045075,
8,0,8,0,6,0,6,0,,,,,,,,,,,252.57359199994244,253.17362260003574,253.1568779000081,252.57359199994244,XXX,2022_Mar_07_1636,Checkerboard,2021.2.0,59.842399056045075,
8,0,8,0,7,0,7,0,,,,,,,,,,,253.75714750005864,254.35712240007706,254.34014320001006,253.75714750005864,XXX,2022_Mar_07_1636,Checkerboard,2021.2.0,59.842399056045075,
8,0,8,0,8,0,8,0,,,,,,,,,,,254.9406721999403,255.54022149997763,255.52350979996845,254.9406721999403,XXX,2022_Mar_07_1636,Checkerboard,2021.2.0,59.842399056045075,
8,0,8,0,9,0,9,0,,,,,,,,,,,256.1239918000065,256.72372639994137,256.7070520000998,256.1239918000065,XXX,2022_Mar_07_1636,Checkerboard,2021.2.0,59.842399056045075,
8,0,8,0,,,,,,,,,,,,,,,,,,,XXX,2022_Mar_07_1636,Checkerboard,2021.2.0,59.842399056045075,
9,0,9,0,0,0,0,0,,,,,,,257.3070251001045,None,272.30630729999393,None,272.80621260008775,273.4061664000619,273.3894885000773,None,XXX,2022_Mar_07_1636,Checkerboard,2021.2.0,59.842399056045075,
9,0,9,0,1,0,1,0,,,,,,,,,,,273.9893090000842,274.590161500033,274.57259070011787,273.9893090000842,XXX,2022_Mar_07_1636,Checkerboard,2021.2.0,59.842399056045075,
9,0,9,0,2,0,2,0,,,,,,,,,,,275.1727035001386,275.7724659999367,275.7560235001147,275.1727035001386,XXX,2022_Mar_07_1636,Checkerboard,2021.2.0,59.842399056045075,
9,0,9,0,3,0,3,0,,,,,,,,,,,276.35615579993464,276.95607260009274,276.939197700005,276.35615579993464,XXX,2022_Mar_07_1636,Checkerboard,2021.2.0,59.842399056045075,
9,0,9,0,4,0,4,0,,,,,,,,,,,277.5392845000606,278.1395205000881,278.1225664000958,277.5392845000606,XXX,2022_Mar_07_1636,Checkerboard,2021.2.0,59.842399056045075,
9,0,9,0,5,0,5,0,,,,,,,,,,,278.72267789999023,279.32234019995667,279.3059770001564,278.72267789999023,XXX,2022_Mar_07_1636,Checkerboard,2021.2.0,59.842399056045075,
9,0,9,0,6,0,6,0,,,,,,,,,,,279.9056210999843,280.50586959999055,280.48896130011417,279.9056210999843,XXX,2022_Mar_07_1636,Checkerboard,2021.2.0,59.842399056045075,
9,0,9,0,7,0,7,0,,,,,,,,,,,281.08896240009926,281.6887990999967,281.6723705001641,281.08896240009926,XXX,2022_Mar_07_1636,Checkerboard,2021.2.0,59.842399056045075,
9,0,9,0,8,0,8,0,,,,,,,,,,,282.2725812001154,282.87241760012694,282.8555825999938,282.2725812001154,XXX,2022_Mar_07_1636,Checkerboard,2021.2.0,59.842399056045075,
9,0,9,0,9,0,9,0,,,,,,,,,,,283.4556364000309,284.05557380011305,284.0392720999662,283.4556364000309,XXX,2022_Mar_07_1636,Checkerboard,2021.2.0,59.842399056045075,
9,0,9,0,,,,,,,,,,,,,,,,,,,XXX,2022_Mar_07_1636,Checkerboard,2021.2.0,59.842399056045075,
